<?xml version="1.0" encoding="UTF-8"?>

<Bundle xmlns="http://hl7.org/fhir">
  <id value="bundle-no-info-required-sections"/>
  <language value="en-NZ"/>
  <identifier>
    <system value="urn:oid:2.16.724.4.8.10.200.10"/>
    <value value="59f51f0b-2005-485c-858e-3d3ae9657287"/>
  </identifier>
  <type value="document"/>
  <timestamp value="2022-01-08T20:42:11.0607701+00:00"/>
  <entry>
    <fullUrl value="https://terminz.azurewebsites.net/fhir/Composition/514af4c1-194d-48b4-8afe-7be09d3f895a"/>
    <resource>
      <Composition>
        <id value="514af4c1-194d-48b4-8afe-7be09d3f895a"/>
        <meta>
          <versionId value="1"/>
        </meta>
        <language value="en-NZ"/>
        <text>
          <status value="generated"/><div xmlns='http://www.w3.org/1999/xhtml' lang='en-NZ' xml:lang='en-NZ'>International Patient Summary for James Judge</div>
        </text>
        <identifier>
          <system value="urn:oid:2.16.840.1.113883.2.18.7.2"/>
          <value value="59f51f0b-2005-485c-858e-3d3ae9657287"/>
        </identifier>
        <status value="final"/>
        <type>
          <coding>
            <system value="http://loinc.org"/>
            <code value="60591-5"/>
            <display value="Patient summary Document"/>
          </coding>
        </type>
        <subject>
          <reference value="Patient/AAA1234"/>
        </subject>
        <date value="2021-05-03"/>
        <author>
          <reference value="Organization/d9b97b04-b606-4f07-baf2-7eb3dcae0a2a"/>
        </author>
        <title value="International Patient Summary"/>
        <confidentiality value="N"/>
        <attester>
          <mode value="professional"/>
          <time value="2021-05-03"/>
          <party>
            <reference value="PractitionerRole/f54d8c90-aea2-46b0-8f7a-8683db78344e"/>
          </party>
        </attester>
        <custodian>
          <reference value="Organization/70a756e3-20b3-4637-8601-a222983e295a"/>
        </custodian>
        <relatesTo>
          <code value="transforms"/>
          <targetIdentifier>
            <system value="urn:oid:2.16.840.1.113883.2.18.7.2"/>
            <value value="59f51f0b-2005-485c-858e-3d3ae9657287"/>
          </targetIdentifier>
        </relatesTo>
        <event>
          <code>
            <coding>
              <system value="http://terminology.hl7.org/CodeSystem/v3-ActClass"/>
              <code value="PCPR"/>
            </coding>
          </code>
          <period>
            <end value="2021-05-03"/>
          </period>
        </event>
        <section>
          <title value="Allergies and Intolerances"/>
          <code>
            <coding>
              <system value="http://loinc.org"/>
              <code value="48765-2"/>
              <display value="Allergies and adverse reactions Document"/>
            </coding>
          </code>
          <text>
            <status value="generated"/><div xmlns='http://www.w3.org/1999/xhtml' lang='en-NZ' xml:lang='en-NZ'>There is no information available regarding the subject's allergy conditions.</div>
          </text>
          <entry>
            <reference value="AllergyIntolerance/e198be1e-9861-46af-9d97-841ef9f7c707"/>
          </entry>
        </section>
        <section>
          <title value="Problem List"/>
          <code>
            <coding>
              <system value="http://loinc.org"/>
              <code value="11450-4"/>
              <display value="Problem list - Reported"/>
            </coding>
          </code>
          <text>
            <status value="generated"/><div xmlns='http://www.w3.org/1999/xhtml' lang='en-NZ' xml:lang='en-NZ'>There is no information available about the subject's health problems or disabilities.</div>
          </text>
          <entry>
            <reference value="Condition/da138a5d-633f-493f-9485-e5af1320db5b"/>
          </entry>
        </section>
        <section>
          <title value="Medication Summary"/>
          <code>
            <coding>
              <system value="http://loinc.org"/>
              <code value="10160-0"/>
              <display value="History of Medication use Narrative"/>
            </coding>
          </code>
          <text>
            <status value="generated"/><div xmlns='http://www.w3.org/1999/xhtml' lang='en-NZ' xml:lang='en-NZ'>There is no information available about the subject's medication use or administration.</div>
          </text>
          <entry>
            <reference value="MedicationStatement/ceb9a0d2-454c-4834-be55-2fa1eb2acd49"/>
          </entry>
        </section>
        <section>
          <title value="Immunizations"/>
          <code>
            <coding>
              <system value="http://loinc.org"/>
              <code value="11369-6"/>
              <display value="History of Immunization Narrative"/>
            </coding>
          </code>
          <text>
            <status value="generated"/><div xmlns='http://www.w3.org/1999/xhtml' xml:lang='en-NZ'><table xmlns="http://www.w3.org/1999/xhtml">
        <thead>
          <tr>
            <th>Vaccine</th>
            <th>Date</th>
            <th>Seq</th>
            <th>Route</th>
            <th>Site</th>
            <th>Indication</th>
            <th>Status</th>
            
            
          </tr>
        </thead>
        <tbody>
          <tr>
            <td>Influenza</td>
            <td>03/07/2020</td>
            <td>2</td>
            <td>Injection, intramuscular</td>
            <td>Entire left upper arm</td>
            <td>Eligible condition (Influenza)</td>
            <td>completed</td>
            
            
          </tr>
          <tr>
            <td>Influenza</td>
            <td>03/06/2019</td>
            <td>1</td>
            <td>Injection, intramuscular</td>
            <td>Entire left upper arm</td>
            <td>Eligible condition (Influenza)</td>
            <td>completed</td>
            
            
          </tr>
        </tbody>
      </table>
    </div>
          </text>
          <entry>
            <reference value="Immunization/4ab062b3-8843-4b98-af62-3d6d178a3772"/>
          </entry>
          <entry>
            <reference value="Immunization/bd6c6537-6c5a-4fa8-8d26-2b49377425a2"/>
          </entry>
        </section>
      </Composition>
    </resource>
  </entry>
  <entry>
    <fullUrl value="https://terminz.azurewebsites.net/fhir/Patient/AAA1234"/>
    <resource>
      <Patient>
        <id value="AAA1234"/>
        <text>
          <status value="generated"/><div xmlns='http://www.w3.org/1999/xhtml' xml:lang='en-NZ'>Name: James Judge</div>
        </text>
        <identifier>
          <system value="https://standards.digital.health.nz/ns/nhi-id"/>
          <value value="AAA1234"/>
        </identifier>
        <name>
          <use value="usual"/>
          <family value="Judge"/>
          <given value="James"/>
        </name>
        <telecom>
          <system value="phone"/>
          <value value="tel:+6478532279"/>
          <use value="home"/>
        </telecom>
        <gender value="male"/>
        <birthDate value="1985-04-25"/>
        <address>
          <use value="home"/>
          <type value="physical"/>
          <line value="Bleak House"/>
          <line value="3 Worcester Drive"/>
          <line value="Rototuna North"/>
          <city value="Hamilton"/>
          <postalCode value="3210"/>
          <country value="NZ"/>
        </address>
        <maritalStatus>
          <coding>
            <system value="http://terminology.hl7.org/CodeSystem/v3-MaritalStatus"/>
            <code value="M"/>
            <display value="Married"/>
          </coding>
        </maritalStatus>
        <contact>
          <relationship>
            <coding>
              <system value="http://terminology.hl7.org/CodeSystem/v3-RoleCode"/>
              <code value="FAMMEMB"/>
              <display value="family member"/>
            </coding>
            <coding>
              <system value="http://terminology.hl7.org/CodeSystem/v2-0131"/>
              <code value="N"/>
              <display value="Next-of-Kin"/>
            </coding>
          </relationship>
          <name>
            <use value="usual"/>
            <family value="mother"/>
            <given value="Natural"/>
            <given value="mother"/>
          </name>
        </contact>
        <contact>
          <relationship>
            <coding>
              <system value="http://terminology.hl7.org/CodeSystem/v3-RoleCode"/>
              <code value="FRND"/>
              <display value="unrelated friend"/>
            </coding>
            <coding>
              <system value="http://terminology.hl7.org/CodeSystem/v2-0131"/>
              <code value="C"/>
              <display value="Emergency Contact"/>
            </coding>
          </relationship>
          <name>
            <use value="usual"/>
            <family value="Rabbit"/>
            <given value="Peter"/>
            <given value="Rabbit"/>
          </name>
          <telecom>
            <system value="phone"/>
            <value value="07 853 9191"/>
            <use value="home"/>
          </telecom>
          <address>
            <use value="home"/>
            <type value="physical"/>
            <line value="9 Worcester Drive"/>
            <line value="Rototuna"/>
            <city value="Hamilton"/>
            <postalCode value="3210"/>
            <country value="NZ"/>
          </address>
        </contact>
        <communication>
          <language>
            <coding>
              <system value="urn:ietf:bcp:47"/>
              <code value="en-NZ"/>
            </coding>
          </language>
        </communication>
      </Patient>
    </resource>
  </entry>
  <entry>
    <fullUrl value="https://terminz.azurewebsites.net/fhir/Organization/d9b97b04-b606-4f07-baf2-7eb3dcae0a2a"/>
    <resource>
      <Organization>
        <id value="d9b97b04-b606-4f07-baf2-7eb3dcae0a2a"/>
        <text>
          <status value="generated"/><div xmlns="http://www.w3.org/1999/xhtml"><p><b>Generated Narrative: Organization</b><a name="d9b97b04-b606-4f07-baf2-7eb3dcae0a2a"> </a></p><div style="display: inline-block; background-color: #d9e0e7; padding: 6px; margin: 4px; border: 1px solid #8da1b4; border-radius: 5px; line-height: 60%"><p style="margin-bottom: 0px">Resource Organization &quot;d9b97b04-b606-4f07-baf2-7eb3dcae0a2a&quot; </p></div><p><b>identifier</b>: id: F0K068-E</p><p><b>name</b>: Northcare, Thomas Road</p></div>
        </text>
        <identifier>
          <system value="https://standards.digital.health.nz/ns/hpi-facility-id"/>
          <value value="F0K068-E"/>
        </identifier>
        <name value="Northcare, Thomas Road"/>
      </Organization>
    </resource>
  </entry>
  <entry>
    <fullUrl value="https://terminz.azurewebsites.net/fhir/PractitionerRole/f54d8c90-aea2-46b0-8f7a-8683db78344e"/>
    <resource>
      <PractitionerRole>
        <id value="f54d8c90-aea2-46b0-8f7a-8683db78344e"/>
        <text>
          <status value="generated"/><div xmlns="http://www.w3.org/1999/xhtml"><p><b>Generated Narrative: PractitionerRole</b><a name="f54d8c90-aea2-46b0-8f7a-8683db78344e"> </a></p><div style="display: inline-block; background-color: #d9e0e7; padding: 6px; margin: 4px; border: 1px solid #8da1b4; border-radius: 5px; line-height: 60%"><p style="margin-bottom: 0px">Resource PractitionerRole &quot;f54d8c90-aea2-46b0-8f7a-8683db78344e&quot; </p></div><p><b>practitioner</b>: <a href="#Practitioner_19c24876-ccf8-45e7-8b66-462317e970f1">See above (Practitioner/19c24876-ccf8-45e7-8b66-462317e970f1)</a></p><p><b>code</b>: Doctor <span style="background: LightGoldenRodYellow; margin: 4px; border: 1px solid khaki"> (<a href="https://browser.ihtsdotools.org/">SNOMED CT</a>#158965000)</span></p></div>
        </text>
        <practitioner>
          <reference value="Practitioner/19c24876-ccf8-45e7-8b66-462317e970f1"/>
        </practitioner>
        <code>
          <coding>
            <system value="http://snomed.info/sct"/>
            <code value="158965000"/>
            <display value="Doctor"/>
          </coding>
        </code>
      </PractitionerRole>
    </resource>
  </entry>
  <entry>
    <fullUrl value="https://terminz.azurewebsites.net/fhir/Practitioner/19c24876-ccf8-45e7-8b66-462317e970f1"/>
    <resource>
      <Practitioner>
        <id value="19c24876-ccf8-45e7-8b66-462317e970f1"/>
        <text>
          <status value="generated"/><div xmlns="http://www.w3.org/1999/xhtml"><p><b>Generated Narrative: Practitioner</b><a name="19c24876-ccf8-45e7-8b66-462317e970f1"> </a></p><div style="display: inline-block; background-color: #d9e0e7; padding: 6px; margin: 4px; border: 1px solid #8da1b4; border-radius: 5px; line-height: 60%"><p style="margin-bottom: 0px">Resource Practitioner &quot;19c24876-ccf8-45e7-8b66-462317e970f1&quot; </p></div><p><b>name</b>: Dr Richard Kildare Kildare </p><p><b>telecom</b>: ph: tel:+6478539191(WORK)</p><p><b>address</b>: 12 Thomas Rd Huntingdon Hamilton 3211 NZ (WORK)</p></div>
        </text>
        <name>
          <use value="usual"/>
          <family value="Kildare"/>
          <given value="Dr"/>
          <given value="Richard"/>
          <given value="Kildare"/>
        </name>
        <telecom>
          <system value="phone"/>
          <value value="tel:+6478539191"/>
          <use value="work"/>
        </telecom>
        <address>
          <use value="work"/>
          <type value="physical"/>
          <line value="12 Thomas Rd"/>
          <line value="Huntingdon"/>
          <city value="Hamilton"/>
          <postalCode value="3211"/>
          <country value="NZ"/>
        </address>
      </Practitioner>
    </resource>
  </entry>
  <entry>
    <fullUrl value="https://terminz.azurewebsites.net/fhir/Organization/70a756e3-20b3-4637-8601-a222983e295a"/>
    <resource>
      <Organization>
        <id value="70a756e3-20b3-4637-8601-a222983e295a"/>
        <text>
          <status value="generated"/><div xmlns="http://www.w3.org/1999/xhtml"><p><b>Generated Narrative: Organization</b><a name="70a756e3-20b3-4637-8601-a222983e295a"> </a></p><div style="display: inline-block; background-color: #d9e0e7; padding: 6px; margin: 4px; border: 1px solid #8da1b4; border-radius: 5px; line-height: 60%"><p style="margin-bottom: 0px">Resource Organization &quot;70a756e3-20b3-4637-8601-a222983e295a&quot; </p></div><p><b>identifier</b>: id: F2N000-J</p><p><b>name</b>: NorthCare Pukete Road</p></div>
        </text>
        <identifier>
          <system value="https://standards.digital.health.nz/ns/psychotherapists-board-id"/>
          <value value="F2N000-J"/>
        </identifier>
        <name value="NorthCare Pukete Road"/>
      </Organization>
    </resource>
  </entry>
  <entry>
    <fullUrl value="https://terminz.azurewebsites.net/fhir/AllergyIntolerance/e198be1e-9861-46af-9d97-841ef9f7c707"/>
    <resource>
      <AllergyIntolerance>
        <id value="e198be1e-9861-46af-9d97-841ef9f7c707"/>
        <text>
          <status value="generated"/><div xmlns="http://www.w3.org/1999/xhtml"><p><b>Generated Narrative: AllergyIntolerance</b><a name="e198be1e-9861-46af-9d97-841ef9f7c707"> </a></p><div style="display: inline-block; background-color: #d9e0e7; padding: 6px; margin: 4px; border: 1px solid #8da1b4; border-radius: 5px; line-height: 60%"><p style="margin-bottom: 0px">Resource AllergyIntolerance &quot;e198be1e-9861-46af-9d97-841ef9f7c707&quot; </p></div><p><b>clinicalStatus</b>: Active <span style="background: LightGoldenRodYellow; margin: 4px; border: 1px solid khaki"> (<a href="http://terminology.hl7.org/4.0.0/CodeSystem-allergyintolerance-clinical.html">AllergyIntolerance Clinical Status Codes</a>#active)</span></p><p><b>code</b>: No information about allergies <span style="background: LightGoldenRodYellow; margin: 4px; border: 1px solid khaki"> (<a href="CodeSystem-absent-unknown-uv-ips.html">Absent and Unknown Data - IPS</a>#no-allergy-info)</span></p><p><b>patient</b>: <a href="#Patient_AAA1234">See above (Patient/AAA1234)</a></p></div>
        </text>
        <clinicalStatus>
          <coding>
            <system value="http://terminology.hl7.org/CodeSystem/allergyintolerance-clinical"/>
            <code value="active"/>
          </coding>
        </clinicalStatus>
        <code>
          <coding>
            <system value="http://hl7.org/fhir/uv/ips/CodeSystem/absent-unknown-uv-ips"/>
            <code value="no-allergy-info"/>
            <display value="No information about allergies"/>
          </coding>
        </code>
        <patient>
          <reference value="Patient/AAA1234"/>
        </patient>
      </AllergyIntolerance>
    </resource>
  </entry>
  <entry>
    <fullUrl value="https://terminz.azurewebsites.net/fhir/Condition/da138a5d-633f-493f-9485-e5af1320db5b"/>
    <resource>
      <Condition>
        <id value="da138a5d-633f-493f-9485-e5af1320db5b"/>
        <text>
          <status value="generated"/><div xmlns="http://www.w3.org/1999/xhtml"><p><b>Generated Narrative: Condition</b><a name="da138a5d-633f-493f-9485-e5af1320db5b"> </a></p><div style="display: inline-block; background-color: #d9e0e7; padding: 6px; margin: 4px; border: 1px solid #8da1b4; border-radius: 5px; line-height: 60%"><p style="margin-bottom: 0px">Resource Condition &quot;da138a5d-633f-493f-9485-e5af1320db5b&quot; </p></div><p><b>clinicalStatus</b>: Active <span style="background: LightGoldenRodYellow; margin: 4px; border: 1px solid khaki"> (<a href="http://terminology.hl7.org/4.0.0/CodeSystem-condition-clinical.html">Condition Clinical Status Codes</a>#active)</span></p><p><b>code</b>: No information about problems <span style="background: LightGoldenRodYellow; margin: 4px; border: 1px solid khaki"> (<a href="CodeSystem-absent-unknown-uv-ips.html">Absent and Unknown Data - IPS</a>#no-problem-info)</span></p><p><b>subject</b>: <a href="#Patient_AAA1234">See above (Patient/AAA1234)</a></p></div>
        </text>
        <clinicalStatus>
          <coding>
            <system value="http://terminology.hl7.org/CodeSystem/condition-clinical"/>
            <code value="active"/>
          </coding>
        </clinicalStatus>
        <code>
          <coding>
            <system value="http://hl7.org/fhir/uv/ips/CodeSystem/absent-unknown-uv-ips"/>
            <code value="no-problem-info"/>
            <display value="No information about problems"/>
          </coding>
        </code>
        <subject>
          <reference value="Patient/AAA1234"/>
        </subject>
      </Condition>
    </resource>
  </entry>
  <entry>
    <fullUrl value="https://terminz.azurewebsites.net/fhir/MedicationStatement/ceb9a0d2-454c-4834-be55-2fa1eb2acd49"/>
    <resource>
      <MedicationStatement>
        <id value="ceb9a0d2-454c-4834-be55-2fa1eb2acd49"/>
        <text>
          <status value="generated"/><div xmlns="http://www.w3.org/1999/xhtml"><p><b>Generated Narrative: MedicationStatement</b><a name="ceb9a0d2-454c-4834-be55-2fa1eb2acd49"> </a></p><div style="display: inline-block; background-color: #d9e0e7; padding: 6px; margin: 4px; border: 1px solid #8da1b4; border-radius: 5px; line-height: 60%"><p style="margin-bottom: 0px">Resource MedicationStatement &quot;ceb9a0d2-454c-4834-be55-2fa1eb2acd49&quot; </p></div><p><b>status</b>: unknown</p><p><b>medication</b>: No information about medications <span style="background: LightGoldenRodYellow; margin: 4px; border: 1px solid khaki"> (<a href="CodeSystem-absent-unknown-uv-ips.html">Absent and Unknown Data - IPS</a>#no-medication-info)</span></p><p><b>subject</b>: <a href="#Patient_AAA1234">See above (Patient/AAA1234)</a></p><p><b>effective</b>: ?? --&gt; (ongoing)</p></div>
        </text>
        <status value="unknown"/>
        <medicationCodeableConcept>
          <coding>
            <system value="http://hl7.org/fhir/uv/ips/CodeSystem/absent-unknown-uv-ips"/>
            <code value="no-medication-info"/>
            <display value="No information about medications"/>
          </coding>
        </medicationCodeableConcept>
        <subject>
          <reference value="Patient/AAA1234"/>
        </subject>
        <effectivePeriod>
          <extension url="http://hl7.org/fhir/StructureDefinition/data-absent-reason">
            <valueCode value="not-applicable"/>
          </extension>
        </effectivePeriod>
      </MedicationStatement>
    </resource>
  </entry>
  <entry>
    <fullUrl value="https://terminz.azurewebsites.net/fhir/Immunization/4ab062b3-8843-4b98-af62-3d6d178a3772"/>
    <resource>
      <Immunization>
        <id value="4ab062b3-8843-4b98-af62-3d6d178a3772"/>
        <text>
          <status value="generated"/><div xmlns="http://www.w3.org/1999/xhtml"><p><b>Generated Narrative: Immunization</b><a name="4ab062b3-8843-4b98-af62-3d6d178a3772"> </a></p><div style="display: inline-block; background-color: #d9e0e7; padding: 6px; margin: 4px; border: 1px solid #8da1b4; border-radius: 5px; line-height: 60%"><p style="margin-bottom: 0px">Resource Immunization &quot;4ab062b3-8843-4b98-af62-3d6d178a3772&quot; </p></div><p><b>status</b>: completed</p><p><b>vaccineCode</b>: Influenza, seasonal, injectable <span style="background: LightGoldenRodYellow; margin: 4px; border: 1px solid khaki"> (<a href="http://terminology.hl7.org/4.0.0/CodeSystem-CVX.html">PH_VaccinesAdministeredCVX_CDC_NIP</a>#141)</span></p><p><b>patient</b>: <a href="#Patient_AAA1234">See above (Patient/AAA1234)</a></p><p><b>occurrence</b>: 2020-07-03</p><p><b>lotNumber</b>: B52b</p><p><b>expirationDate</b>: 2020-07-03</p><p><b>site</b>: Entire left upper arm <span style="background: LightGoldenRodYellow; margin: 4px; border: 1px solid khaki"> (<a href="https://browser.ihtsdotools.org/">SNOMED CT</a>#72098002)</span></p><p><b>route</b>: Injection, intramuscular <span style="background: LightGoldenRodYellow; margin: 4px; border: 1px solid khaki"> (<a href="http://terminology.hl7.org/4.0.0/CodeSystem-v3-RouteOfAdministration.html">RouteOfAdministration</a>#IM)</span></p><h3>Performers</h3><table class="grid"><tr><td>-</td><td><b>Actor</b></td></tr><tr><td>*</td><td><a href="#Organization_70a756e3-20b3-4637-8601-a222983e295a">See above (Organization/70a756e3-20b3-4637-8601-a222983e295a)</a></td></tr></table><h3>ProtocolApplieds</h3><table class="grid"><tr><td>-</td><td><b>Series</b></td><td><b>DoseNumber[x]</b></td></tr><tr><td>*</td><td>45y (Eligible condition (Influenza))</td><td>2</td></tr></table></div>
        </text>
        <status value="completed"/>
        <vaccineCode>
          <coding>
            <system value="http://hl7.org/fhir/sid/cvx"/>
            <code value="141"/>
            <display value="Influenza, seasonal, injectable"/>
          </coding>
        </vaccineCode>
        <patient>
          <reference value="Patient/AAA1234"/>
        </patient>
        <occurrenceDateTime value="2020-07-03"/>
        <lotNumber value="B52b"/>
        <expirationDate value="2020-07-03"/>
        <site>
          <coding>
            <system value="http://snomed.info/sct"/>
            <code value="72098002"/>
            <display value="Entire left upper arm"/>
          </coding>
        </site>
        <route>
          <coding>
            <system value="http://terminology.hl7.org/CodeSystem/v3-RouteOfAdministration"/>
            <code value="IM"/>
            <display value="Injection, intramuscular"/>
          </coding>
        </route>
        <performer>
          <actor>
            <reference value="Organization/70a756e3-20b3-4637-8601-a222983e295a"/>
          </actor>
        </performer>
        <protocolApplied>
          <series value="45y (Eligible condition (Influenza))"/>
          <doseNumberPositiveInt value="2"/>
        </protocolApplied>
      </Immunization>
    </resource>
  </entry>
  <entry>
    <fullUrl value="https://terminz.azurewebsites.net/fhir/Immunization/bd6c6537-6c5a-4fa8-8d26-2b49377425a2"/>
    <resource>
      <Immunization>
        <id value="bd6c6537-6c5a-4fa8-8d26-2b49377425a2"/>
        <text>
          <status value="generated"/><div xmlns="http://www.w3.org/1999/xhtml"><p><b>Generated Narrative: Immunization</b><a name="bd6c6537-6c5a-4fa8-8d26-2b49377425a2"> </a></p><div style="display: inline-block; background-color: #d9e0e7; padding: 6px; margin: 4px; border: 1px solid #8da1b4; border-radius: 5px; line-height: 60%"><p style="margin-bottom: 0px">Resource Immunization &quot;bd6c6537-6c5a-4fa8-8d26-2b49377425a2&quot; </p></div><p><b>status</b>: completed</p><p><b>vaccineCode</b>: Influenza, seasonal, injectable <span style="background: LightGoldenRodYellow; margin: 4px; border: 1px solid khaki"> (<a href="http://terminology.hl7.org/4.0.0/CodeSystem-CVX.html">PH_VaccinesAdministeredCVX_CDC_NIP</a>#141)</span></p><p><b>patient</b>: <a href="#Patient_AAA1234">See above (Patient/AAA1234)</a></p><p><b>occurrence</b>: 2019-06-03</p><p><b>lotNumber</b>: B52</p><p><b>expirationDate</b>: 2019-08-03</p><p><b>site</b>: Entire left upper arm <span style="background: LightGoldenRodYellow; margin: 4px; border: 1px solid khaki"> (<a href="https://browser.ihtsdotools.org/">SNOMED CT</a>#72098002)</span></p><p><b>route</b>: Injection, intramuscular <span style="background: LightGoldenRodYellow; margin: 4px; border: 1px solid khaki"> (<a href="http://terminology.hl7.org/4.0.0/CodeSystem-v3-RouteOfAdministration.html">RouteOfAdministration</a>#IM)</span></p><h3>Performers</h3><table class="grid"><tr><td>-</td><td><b>Actor</b></td></tr><tr><td>*</td><td><a href="#Organization_70a756e3-20b3-4637-8601-a222983e295a">See above (Organization/70a756e3-20b3-4637-8601-a222983e295a)</a></td></tr></table><h3>ProtocolApplieds</h3><table class="grid"><tr><td>-</td><td><b>Series</b></td><td><b>DoseNumber[x]</b></td></tr><tr><td>*</td><td>45y (Eligible condition (Influenza))</td><td>1</td></tr></table></div>
        </text>
        <status value="completed"/>
        <vaccineCode>
          <coding>
            <system value="http://hl7.org/fhir/sid/cvx"/>
            <code value="141"/>
            <display value="Influenza, seasonal, injectable"/>
          </coding>
        </vaccineCode>
        <patient>
          <reference value="Patient/AAA1234"/>
        </patient>
        <occurrenceDateTime value="2019-06-03"/>
        <lotNumber value="B52"/>
        <expirationDate value="2019-08-03"/>
        <site>
          <coding>
            <system value="http://snomed.info/sct"/>
            <code value="72098002"/>
            <display value="Entire left upper arm"/>
          </coding>
        </site>
        <route>
          <coding>
            <system value="http://terminology.hl7.org/CodeSystem/v3-RouteOfAdministration"/>
            <code value="IM"/>
            <display value="Injection, intramuscular"/>
          </coding>
        </route>
        <performer>
          <actor>
            <reference value="Organization/70a756e3-20b3-4637-8601-a222983e295a"/>
          </actor>
        </performer>
        <protocolApplied>
          <series value="45y (Eligible condition (Influenza))"/>
          <doseNumberPositiveInt value="1"/>
        </protocolApplied>
      </Immunization>
    </resource>
  </entry>
</Bundle>